Temperature(K)	Pressure (MPa)	Density (kg/m^3)
330.0	157.57	1040.0
325.0	149.266	1040.0
320.0	140.359	1040.0
315.0	133.277	1040.0
310.0	126.145	1040.0
305.0	119.869	1040.0
300.0	114.328	1040.0
295.0	110.202	1040.0
290.0	106.475	1040.0
285.0	104.47	1040.0
280.0	103.816	1040.0
275.0	105.293	1040.0
270.0	107.681	1040.0
265.0	112.951	1040.0
260.0	120.683	1040.0
255.0	131.621	1040.0
250.0	143.811	1040.0
245.0	161.638	1040.0
240.0	183.242	1040.0
235.0	207.242	1040.0
230.0	236.538	1040.0
225.0	275.937	1040.0
220.0	307.537	1040.0
215.0	351.222	1040.0
210.0	342.192	1040.0
205.0	358.599	1040.0
330.0	110.723	1020.0
325.0	102.632	1020.0
320.0	94.7068	1020.0
315.0	87.4982	1020.0
310.0	80.5689	1020.0
305.0	75.316	1020.0
300.0	70.0148	1020.0
295.0	66.5346	1020.0
290.0	63.4551	1020.0
285.0	62.3801	1020.0
280.0	62.5932	1020.0
275.0	63.4643	1020.0
270.0	68.2236	1020.0
265.0	74.8112	1020.0
260.0	84.5233	1020.0
255.0	96.8254	1020.0
250.0	113.432	1020.0
245.0	134.487	1020.0
240.0	159.701	1020.0
235.0	196.461	1020.0
230.0	229.227	1020.0
225.0	260.447	1020.0
220.0	275.765	1020.0
215.0	350.655	1020.0
330.0	68.5641	1000.0
325.0	60.4843	1000.0
320.0	52.6698	1000.0
315.0	46.4766	1000.0
310.0	40.1494	1000.0
305.0	34.2646	1000.0
300.0	29.5864	1000.0
295.0	26.0363	1000.0
290.0	23.1888	1000.0
285.0	22.3208	1000.0
280.0	22.7573	1000.0
275.0	25.0421	1000.0
270.0	30.1866	1000.0
265.0	37.453	1000.0
260.0	47.8509	1000.0
255.0	61.8688	1000.0
250.0	81.8922	1000.0
245.0	102.221	1000.0
240.0	130.325	1000.0
235.0	160.348	1000.0
230.0	195.394	1000.0
225.0	193.736	1000.0
330.0	30.3919	980.0
325.0	22.2466	980.0
320.0	15.0693	980.0
315.0	8.35904	980.0
310.0	2.20685	980.0
305.0	-3.73049	980.0
300.0	-8.36441	980.0
295.0	-11.8353	980.0
290.0	-14.6816	980.0
285.0	-15.6594	980.0
280.0	-15.4181	980.0
275.0	-13.3163	980.0
270.0	-9.05511	980.0
265.0	-2.26457	980.0
260.0	8.17694	980.0
255.0	20.4817	980.0
250.0	36.3836	980.0
245.0	56.2071	980.0
240.0	79.43	980.0
235.0	93.0224	980.0
230.0	109.713	980.0
225.0	108.775	980.0
220.0	87.3353	980.0
330.0	-3.59437	960.0
325.0	-12.0002	960.0
320.0	-19.1817	960.0
315.0	-25.6923	960.0
310.0	-32.3775	960.0
305.0	-37.6821	960.0
300.0	-42.715	960.0
295.0	-47.023	960.0
290.0	-50.3274	960.0
285.0	-52.2539	960.0
280.0	-52.8523	960.0
275.0	-51.7215	960.0
270.0	-49.3386	960.0
265.0	-44.5536	960.0
260.0	-36.6277	960.0
255.0	-27.9632	960.0
250.0	-17.2152	960.0
245.0	-8.04351	960.0
240.0	-5.27876	960.0
235.0	-2.90806	960.0
230.0	-12.0316	960.0
330.0	-33.7805	940.0
325.0	-42.0295	940.0
320.0	-49.1978	940.0
315.0	-55.5251	940.0
310.0	-63.2906	940.0
305.0	-68.4571	940.0
300.0	-74.3305	940.0
295.0	-79.2831	940.0
290.0	-83.7338	940.0
285.0	-86.5037	940.0
280.0	-88.5314	940.0
275.0	-90.2213	940.0
270.0	-90.2742	940.0
265.0	-89.2211	940.0
260.0	-86.9603	940.0
255.0	-86.5386	940.0
250.0	-87.5479	940.0
245.0	-88.8541	940.0
240.0	-97.5703	940.0
235.0	-94.7314	940.0
230.0	-135.334	940.0
225.0	-123.741	940.0
330.0	-60.9767	920.0
325.0	-68.5034	920.0
320.0	-75.8455	920.0
315.0	-83.166	920.0
310.0	-89.8011	920.0
305.0	-96.3039	920.0
300.0	-102.708	920.0
295.0	-108.488	920.0
290.0	-113.723	920.0
285.0	-118.882	920.0
280.0	-123.211	920.0
275.0	-127.534	920.0
270.0	-131.354	920.0
265.0	-134.689	920.0
260.0	-140.181	920.0
255.0	-146.531	920.0
250.0	-151.039	920.0
245.0	-167.528	920.0
240.0	-183.613	920.0
235.0	-209.973	920.0
230.0	-184.646	920.0
330.0	-83.3099	900.0
325.0	-90.7422	900.0
320.0	-98.2357	900.0
315.0	-105.619	900.0
310.0	-112.726	900.0
305.0	-120.229	900.0
300.0	-127.41	900.0
295.0	-134.094	900.0
290.0	-140.678	900.0
285.0	-147.473	900.0
280.0	-153.805	900.0
275.0	-161.029	900.0
270.0	-169.003	900.0
265.0	-176.88	900.0
260.0	-186.839	900.0
255.0	-198.623	900.0
250.0	-215.301	900.0
245.0	-230.018	900.0
240.0	-248.454	900.0
235.0	-269.467	900.0
230.0	-299.146	900.0
225.0	-302.275	900.0
220.0	-310.791	900.0
330.0	-101.934	880.0
325.0	-109.402	880.0
320.0	-116.566	880.0
315.0	-124.233	880.0
310.0	-131.965	880.0
305.0	-139.547	880.0
300.0	-146.833	880.0
295.0	-154.672	880.0
290.0	-162.611	880.0
285.0	-170.762	880.0
280.0	-179.075	880.0
275.0	-188.368	880.0
270.0	-198.743	880.0
265.0	-209.721	880.0
260.0	-222.444	880.0
255.0	-238.128	880.0
250.0	-254.149	880.0
245.0	-272.873	880.0
240.0	-290.236	880.0
235.0	-310.982	880.0
230.0	-322.784	880.0
225.0	-342.31	880.0
220.0	-346.866	880.0
330.0	-116.353	860.0
325.0	-123.661	860.0
320.0	-130.799	860.0
315.0	-138.492	860.0
310.0	-146.283	860.0
305.0	-153.484	860.0
300.0	-161.932	860.0
295.0	-169.782	860.0
290.0	-177.969	860.0
285.0	-186.461	860.0
280.0	-196.194	860.0
275.0	-207.113	860.0
270.0	-217.939	860.0
265.0	-230.182	860.0
260.0	-244.65	860.0
255.0	-259.856	860.0
250.0	-276.979	860.0
245.0	-293.414	860.0
240.0	-309.683	860.0
235.0	-326.662	860.0
230.0	-339.296	860.0
225.0	-362.496	860.0
220.0	-378.871	860.0
215.0	-386.728	860.0
320.0	53.0649	1000.0
315.0	45.3924	1000.0
310.0	40.3457	1000.0
305.0	33.6676	1000.0
300.0	28.6198	1000.0
295.0	28.1619	1000.0
290.0	22.6735	1000.0
285.0	22.8295	1000.0
280.0	22.4303	1000.0
275.0	25.2218	1000.0
270.0	30.9822	1000.0
265.0	37.3292	1000.0
260.0	47.3036	1000.0
255.0	59.9517	1000.0
250.0	75.8384	1000.0
245.0	101.562	1000.0
240.0	139.229	1000.0
235.0	166.847	1000.0
230.0	208.799	1000.0
225.0	281.864	1000.0
320.0	95.4922	1020.0
315.0	87.145	1020.0
310.0	81.3272	1020.0
305.0	74.7625	1020.0
300.0	69.938	1020.0
295.0	66.5444	1020.0
290.0	64.1485	1020.0
285.0	62.0114	1020.0
280.0	63.084	1020.0
275.0	64.73	1020.0
270.0	68.5026	1020.0
265.0	75.6422	1020.0
260.0	82.7108	1020.0
255.0	98.2838	1020.0
250.0	115.946	1020.0
245.0	133.794	1020.0
240.0	159.019	1020.0
235.0	184.296	1020.0
230.0	220.08	1020.0
320.0	141.359	1040.0
315.0	133.425	1040.0
310.0	126.435	1040.0
305.0	120.192	1040.0
300.0	115.143	1040.0
295.0	109.952	1040.0
290.0	107.836	1040.0
285.0	105.601	1040.0
280.0	103.252	1040.0
275.0	105.133	1040.0
270.0	107.286	1040.0
265.0	112.994	1040.0
260.0	120.069	1040.0
255.0	131.993	1040.0
250.0	146.977	1040.0
245.0	162.87	1040.0
240.0	185.72	1040.0
235.0	209.67	1040.0
230.0	243.667	1040.0
225.0	282.425	1040.0
220.0	308.605	1040.0
320.0	190.481	1060.0
315.0	183.494	1060.0
310.0	174.5	1060.0
305.0	169.034	1060.0
300.0	162.594	1060.0
295.0	156.83	1060.0
290.0	152.984	1060.0
285.0	149.835	1060.0
280.0	147.872	1060.0
275.0	148.668	1060.0
270.0	149.9	1060.0
265.0	153.123	1060.0
260.0	157.221	1060.0
255.0	165.596	1060.0
250.0	175.545	1060.0
245.0	187.709	1060.0
240.0	204.48	1060.0
235.0	229.081	1060.0
230.0	247.767	1060.0
225.0	275.364	1060.0
220.0	302.223	1060.0
215.0	338.556	1060.0
320.0	246.609	1080.0
315.0	238.085	1080.0
310.0	229.078	1080.0
305.0	220.984	1080.0
300.0	213.622	1080.0
295.0	207.913	1080.0
290.0	202.746	1080.0
285.0	199.281	1080.0
280.0	195.13	1080.0
275.0	194.213	1080.0
270.0	193.99	1080.0
265.0	195.008	1080.0
260.0	197.964	1080.0
255.0	202.211	1080.0
250.0	209.896	1080.0
245.0	218.573	1080.0
240.0	231.27	1080.0
235.0	244.879	1080.0
230.0	260.032	1080.0
225.0	284.896	1080.0
220.0	305.092	1080.0
215.0	326.246	1080.0
210.0	345.072	1080.0
320.0	307.114	1100.0
315.0	296.674	1100.0
310.0	286.811	1100.0
305.0	278.633	1100.0
300.0	270.67	1100.0
295.0	263.509	1100.0
290.0	257.428	1100.0
285.0	251.609	1100.0
280.0	246.741	1100.0
275.0	243.296	1100.0
270.0	242.38	1100.0
265.0	240.01	1100.0
260.0	241.795	1100.0
255.0	242.658	1100.0
250.0	247.118	1100.0
245.0	252.41	1100.0
240.0	259.05	1100.0
235.0	270.301	1100.0
230.0	282.904	1100.0
225.0	297.352	1100.0
220.0	310.153	1100.0
215.0	328.152	1100.0
210.0	358.999	1100.0
320.0	372.501	1120.0
315.0	361.815	1120.0
310.0	351.702	1120.0
305.0	342.967	1120.0
300.0	333.039	1120.0
295.0	323.602	1120.0
290.0	316.18	1120.0
285.0	309.694	1120.0
280.0	302.376	1120.0
275.0	299.486	1120.0
270.0	293.961	1120.0
265.0	292.092	1120.0
260.0	289.532	1120.0
255.0	288.507	1120.0
250.0	289.18	1120.0
245.0	293.103	1120.0
240.0	297.752	1120.0
235.0	302.643	1120.0
230.0	308.265	1120.0
225.0	317.418	1120.0
220.0	330.002	1120.0
215.0	340.541	1120.0
210.0	356.433	1120.0
320.0	443.778	1140.0
315.0	432.439	1140.0
310.0	420.565	1140.0
305.0	410.735	1140.0
300.0	399.905	1140.0
295.0	390.559	1140.0
290.0	380.997	1140.0
285.0	371.977	1140.0
280.0	364.313	1140.0
275.0	358.111	1140.0
270.0	351.672	1140.0
265.0	347.542	1140.0
260.0	342.41	1140.0
255.0	340.146	1140.0
250.0	336.793	1140.0
245.0	335.601	1140.0
240.0	338.519	1140.0
235.0	338.45	1140.0
230.0	342.504	1140.0
225.0	345.059	1140.0
220.0	351.349	1140.0
215.0	356.911	1140.0
210.0	364.305	1140.0
320.0	521.684	1160.0
315.0	509.304	1160.0
310.0	496.382	1160.0
305.0	483.439	1160.0
300.0	472.632	1160.0
295.0	460.81	1160.0
290.0	449.965	1160.0
285.0	441.138	1160.0
280.0	431.885	1160.0
275.0	423.185	1160.0
270.0	415.78	1160.0
265.0	408.401	1160.0
260.0	402.38	1160.0
255.0	397.354	1160.0
250.0	391.014	1160.0
245.0	389.263	1160.0
240.0	386.451	1160.0
235.0	382.447	1160.0
230.0	381.996	1160.0
225.0	381.694	1160.0
220.0	384.415	1160.0
215.0	383.037	1160.0
210.0	389.175	1160.0
320.0	218.637	1070.0
315.0	210.152	1070.0
310.0	201.636	1070.0
305.0	193.736	1070.0
300.0	187.923	1070.0
295.0	182.104	1070.0
290.0	178.908	1070.0
285.0	173.401	1070.0
280.0	171.483	1070.0
275.0	170.597	1070.0
270.0	171.66	1070.0
265.0	174.015	1070.0
260.0	177.563	1070.0
255.0	183.514	1070.0
250.0	191.789	1070.0
245.0	205.096	1070.0
240.0	218.262	1070.0
235.0	237.85	1070.0
230.0	256.517	1070.0
225.0	278.011	1070.0
220.0	313.258	1070.0
215.0	340.593	1070.0
320.0	276.343	1090.0
315.0	265.182	1090.0
310.0	257.96	1090.0
305.0	250.294	1090.0
300.0	241.304	1090.0
295.0	235.221	1090.0
290.0	228.535	1090.0
285.0	225.395	1090.0
280.0	221.24	1090.0
275.0	218.478	1090.0
270.0	217.892	1090.0
265.0	217.712	1090.0
260.0	218.977	1090.0
255.0	222.79	1090.0
250.0	227.682	1090.0
245.0	236.258	1090.0
240.0	245.074	1090.0
235.0	254.471	1090.0
230.0	271.526	1090.0
225.0	288.873	1090.0
220.0	307.047	1090.0
215.0	331.637	1090.0
210.0	351.799	1090.0
